stair.thisTrialN,stair.stepSize,stair.intensity,thisRow.t,notes,trial.started,fixation.started,grating.started,key_resp.started,fixation.stopped,grating.stopped,trial.stopped,corrAns,tilt,key_resp.corr,stair.response,key_resp.rt,participant,session,date,expName,psychopyVersion,frameRate,expStart,
0,2,10.0,0.031076000013854355,,0.013232400000561029,0.031076000013854355,0.5312256999895908,0.5312256999895908,0.549391700013075,0.8323129999917,2.515642400016077,right,10.0,1,1,1.9777822000323795,059408,001,2024-09-09_13h20.40.102,adaptive_staircase 3rd friday,2024.1.5,None,2024-09-09 13h20.49.937546 +0530,
1,2,8.0,2.530440600006841,,2.5157895000302233,2.530440600006841,3.014095999998972,3.014095999998972,3.0310326000326313,3.314493499987293,3.5501946000149474,left,-8.0,1,1,0.5213997999671847,059408,001,2024-09-09_13h20.40.102,adaptive_staircase 3rd friday,2024.1.5,None,2024-09-09 13h20.49.937546 +0530,
2,2,6.0,3.5652923000161536,,3.550333400024101,3.5652923000161536,4.06507650000276,4.06507650000276,4.06507650000276,4.364785699988715,4.582807100028731,left,-6.0,1,1,0.4999162999447435,059408,001,2024-09-09_13h20.40.102,adaptive_staircase 3rd friday,2024.1.5,None,2024-09-09 13h20.49.937546 +0530,
3,1,4.0,4.596946900011972,,4.582944700028747,4.596946900011972,5.0971481000306085,5.0971481000306085,5.0971481000306085,5.396997900039423,5.4815713000134565,right,4.0,0,0,0.3725763999973424,059408,001,2024-09-09_13h20.40.102,adaptive_staircase 3rd friday,2024.1.5,None,2024-09-09 13h20.49.937546 +0530,
4,1,5.0,5.496851300005801,,5.48168229998555,5.496851300005801,5.981409700005315,5.981409700005315,5.99747549998574,6.297300200036261,6.399085699988063,left,-5.0,1,1,0.41234159999294207,059408,001,2024-09-09_13h20.40.102,adaptive_staircase 3rd friday,2024.1.5,None,2024-09-09 13h20.49.937546 +0530,
5,1,5.0,6.4141574000241235,,6.399198900035117,6.4141574000241235,6.897666700009722,6.897666700009722,6.915561000001617,7.196658600005321,7.3148253000108525,right,5.0,0,0,0.4020697000087239,059408,001,2024-09-09_13h20.40.102,adaptive_staircase 3rd friday,2024.1.5,None,2024-09-09 13h20.49.937546 +0530,
6,1,6.0,7.330577499989886,,7.314929699990898,7.330577499989886,7.829899100004695,7.829899100004695,7.847629800031427,8.129276900028344,8.563253400032409,right,6.0,1,1,0.730500600009691,059408,001,2024-09-09_13h20.40.102,adaptive_staircase 3rd friday,2024.1.5,None,2024-09-09 13h20.49.937546 +0530,
7,1,6.0,8.57930690003559,,8.563347399991471,8.57930690003559,9.06362710002577,9.06362710002577,9.0826253000414,9.362739500007592,9.629629700037185,left,-6.0,1,1,0.5531628999742679,059408,001,2024-09-09_13h20.40.102,adaptive_staircase 3rd friday,2024.1.5,None,2024-09-09 13h20.49.937546 +0530,
8,1,6.0,9.647593100031372,,9.629697700031102,9.647593100031372,10.129217799985781,10.129217799985781,10.1636193000013,10.429203999985475,10.680717799987178,left,-6.0,1,1,0.5411177000496536,059408,001,2024-09-09_13h20.40.102,adaptive_staircase 3rd friday,2024.1.5,None,2024-09-09 13h20.49.937546 +0530,
9,1,5.0,10.695626900007483,,10.680863499990664,10.695626900007483,11.197196800028905,11.197196800028905,11.197196800028905,11.496872999996413,11.680819700006396,right,5.0,1,1,0.4678917999844998,059408,001,2024-09-09_13h20.40.102,adaptive_staircase 3rd friday,2024.1.5,None,2024-09-09 13h20.49.937546 +0530,
10,1,5.0,11.695446200028528,,11.68095850001555,11.695446200028528,12.196708100032993,12.196708100032993,12.196708100032993,12.495665099995676,12.629823800001759,left,-5.0,1,1,0.42320509999990463,059408,001,2024-09-09_13h20.40.102,adaptive_staircase 3rd friday,2024.1.5,None,2024-09-09 13h20.49.937546 +0530,
11,1,5.0,12.6459483000217,,12.629934400029015,12.6459483000217,13.14585959998658,13.14585959998658,13.14585959998658,13.446280000032857,13.646827800024766,left,-5.0,1,1,0.48963119997642934,059408,001,2024-09-09_13h20.40.102,adaptive_staircase 3rd friday,2024.1.5,None,2024-09-09 13h20.49.937546 +0530,
12,1,4.0,13.661999300005846,,13.64694150001742,13.661999300005846,14.16152190003777,14.16152190003777,14.16152190003777,14.462456100038253,14.563538199989125,right,4.0,1,1,0.39599220000673085,059408,001,2024-09-09_13h20.40.102,adaptive_staircase 3rd friday,2024.1.5,None,2024-09-09 13h20.49.937546 +0530,
13,1,4.0,14.57866570004262,,14.563696900033392,14.57866570004262,15.077627399994526,15.077627399994526,15.077627399994526,15.379931900009979,15.496808300027624,left,-4.0,1,1,0.4175979999708943,059408,001,2024-09-09_13h20.40.102,adaptive_staircase 3rd friday,2024.1.5,None,2024-09-09 13h20.49.937546 +0530,
14,1,4.0,15.511348200030625,,15.496941999997944,15.511348200030625,16.01305730000604,16.01305730000604,16.01305730000604,16.329664700024296,16.41310310002882,right,4.0,1,1,0.3875441999989562,059408,001,2024-09-09_13h20.40.102,adaptive_staircase 3rd friday,2024.1.5,None,2024-09-09 13h20.49.937546 +0530,
15,1,3.0,16.427858000039123,,16.413262700021733,16.427858000039123,16.928447199985385,16.928447199985385,16.928447199985385,17.2450397000066,17.379278300039005,left,-3.0,1,1,0.4442911999649368,059408,001,2024-09-09_13h20.40.102,adaptive_staircase 3rd friday,2024.1.5,None,2024-09-09 13h20.49.937546 +0530,
16,1,3.0,17.39439420000417,,17.379385700041894,17.39439420000417,17.878628800041042,17.878628800041042,17.894766499986872,18.178675200033467,18.29600269999355,right,3.0,1,1,0.4009347999817692,059408,001,2024-09-09_13h20.40.102,adaptive_staircase 3rd friday,2024.1.5,None,2024-09-09 13h20.49.937546 +0530,
17,1,3.0,18.31161199999042,,18.29610070004128,18.31161199999042,18.811593700025696,18.811593700025696,18.811593700025696,19.109839299984742,19.144831000012346,left,-3.0,1,1,0.3217890000087209,059408,001,2024-09-09_13h20.40.102,adaptive_staircase 3rd friday,2024.1.5,None,2024-09-09 13h20.49.937546 +0530,
18,0.5,2.0,19.161057099991012,,19.14491430000635,19.161057099991012,19.64408400002867,19.64408400002867,19.661431699991226,19.9447565000155,20.029210200009402,left,-2.0,0,0,0.3827356999972835,059408,001,2024-09-09_13h20.40.102,adaptive_staircase 3rd friday,2024.1.5,None,2024-09-09 13h20.49.937546 +0530,
19,0.5,2.5,20.044042100023944,,20.02932349999901,20.044042100023944,20.544225800025743,20.544225800025743,20.544225800025743,20.84450669999933,20.979207700002007,left,-2.5,1,1,0.4297608999768272,059408,001,2024-09-09_13h20.40.102,adaptive_staircase 3rd friday,2024.1.5,None,2024-09-09 13h20.49.937546 +0530,
20,0.5,2.5,20.993784999998752,,20.97938430000795,20.993784999998752,21.494928400032222,21.494928400032222,21.494928400032222,21.7948277000105,21.912503900006413,right,2.5,1,1,0.41232920001493767,059408,001,2024-09-09_13h20.40.102,adaptive_staircase 3rd friday,2024.1.5,None,2024-09-09 13h20.49.937546 +0530,
21,0.5,2.5,21.926526300027035,,21.912651400023606,21.926526300027035,22.427412700024433,22.427412700024433,22.427412700024433,22.727004899992608,23.04374980001012,left,-2.5,0,0,0.6120620000292547,059408,001,2024-09-09_13h20.40.102,adaptive_staircase 3rd friday,2024.1.5,None,2024-09-09 13h20.49.937546 +0530,
22,0.5,3.0,23.059028499992564,,23.043834600015543,23.059028499992564,23.543916399998125,23.543916399998125,23.561872099991888,23.8441738000256,24.06122969998978,left,-3.0,1,1,0.5045563000021502,059408,001,2024-09-09_13h20.40.102,adaptive_staircase 3rd friday,2024.1.5,None,2024-09-09 13h20.49.937546 +0530,
23,0.5,3.0,24.076304599992,,24.061351100041065,24.076304599992,24.626624700031243,24.626624700031243,24.626624700031243,24.92600139998831,25.09573589998763,right,3.0,1,1,0.4663345000008121,059408,001,2024-09-09_13h20.40.102,adaptive_staircase 3rd friday,2024.1.5,None,2024-09-09 13h20.49.937546 +0530,
24,0.5,3.0,25.109441100037657,,25.09586970001692,25.109441100037657,25.609649599995464,25.609649599995464,25.609649599995464,25.909288900031243,26.12707580003189,left,-3.0,1,1,0.5093118000077084,059408,001,2024-09-09_13h20.40.102,adaptive_staircase 3rd friday,2024.1.5,None,2024-09-09 13h20.49.937546 +0530,
25,0.5,2.5,26.143285600002855,,26.127191000035964,26.143285600002855,26.62679750000825,26.62679750000825,26.643243800033815,26.94261650001863,27.025993300019763,right,2.5,1,1,0.3909560000174679,059408,001,2024-09-09_13h20.40.102,adaptive_staircase 3rd friday,2024.1.5,None,2024-09-09 13h20.49.937546 +0530,
26,0.5,2.5,27.04185790003976,,27.02608020004118,27.04185790003976,27.526962500007357,27.526962500007357,27.54362690000562,27.825636200024746,27.959919699991588,right,2.5,1,1,0.4254772000131197,059408,001,2024-09-09_13h20.40.102,adaptive_staircase 3rd friday,2024.1.5,None,2024-09-09 13h20.49.937546 +0530,
27,0.5,2.5,27.975713399995584,,27.960002200037707,27.975713399995584,28.45992940000724,28.45992940000724,28.476394099998288,28.759672400017735,28.9450530000031,left,-2.5,1,1,0.48106939997524023,059408,001,2024-09-09_13h20.40.102,adaptive_staircase 3rd friday,2024.1.5,None,2024-09-09 13h20.49.937546 +0530,
28,0.5,2.0,28.958826899994165,,28.945188399986364,28.958826899994165,29.460175300017,29.460175300017,29.460175300017,29.774842599988915,29.992523099994287,right,2.0,1,1,0.5199529000092298,059408,001,2024-09-09_13h20.40.102,adaptive_staircase 3rd friday,2024.1.5,None,2024-09-09 13h20.49.937546 +0530,
29,0.5,2.0,30.008719000034034,,29.992602700018324,30.008719000034034,30.492068200022914,30.492068200022914,30.511150200036354,30.791885400016326,30.975632600020617,left,-2.0,1,1,0.47346029995242134,059408,001,2024-09-09_13h20.40.102,adaptive_staircase 3rd friday,2024.1.5,None,2024-09-09 13h20.49.937546 +0530,
30,0.5,2.0,30.991925699985586,,30.97573280002689,30.991925699985586,31.475303300016094,31.475303300016094,31.492358900024556,31.77478020003764,32.35957299999427,left,-2.0,1,1,0.8752639000304043,059408,001,2024-09-09_13h20.40.102,adaptive_staircase 3rd friday,2024.1.5,None,2024-09-09 13h20.49.937546 +0530,
31,0.5,1.5,32.376010500011034,,32.35971809999319,32.376010500011034,32.85911349998787,32.85911349998787,32.8759454000392,33.15899940003874,33.24418219999643,right,1.5,1,1,0.37832140002865344,059408,001,2024-09-09_13h20.40.102,adaptive_staircase 3rd friday,2024.1.5,None,2024-09-09 13h20.49.937546 +0530,
32,0.5,1.5,33.258319700020365,,33.24428310000803,33.258319700020365,33.75799920002464,33.75799920002464,33.75799920002464,34.05694899999071,34.143082200025674,left,-1.5,0,0,0.3711132000316866,059408,001,2024-09-09_13h20.40.102,adaptive_staircase 3rd friday,2024.1.5,None,2024-09-09 13h20.49.937546 +0530,
33,0.5,2.0,34.16133420000551,,34.143214599986095,34.16133420000551,34.657206400006544,34.657206400006544,34.67414190003183,34.957829000020865,35.22545840003295,right,2.0,1,1,0.5575323999510147,059408,001,2024-09-09_13h20.40.102,adaptive_staircase 3rd friday,2024.1.5,None,2024-09-09 13h20.49.937546 +0530,
34,0.5,2.0,35.24191720003728,,35.225596600037534,35.24191720003728,35.74070720002055,35.74070720002055,35.7573349000304,36.040950099995825,36.34243850002531,left,-2.0,1,1,0.599785799975507,059408,001,2024-09-09_13h20.40.102,adaptive_staircase 3rd friday,2024.1.5,None,2024-09-09 13h20.49.937546 +0530,
35,0.5,2.0,36.35710339999059,,36.34263780002948,36.35710339999059,36.84127199999057,36.84127199999057,36.857785900007,37.14004399999976,37.24306920001982,left,-2.0,0,0,0.39619820000370964,059408,001,2024-09-09_13h20.40.102,adaptive_staircase 3rd friday,2024.1.5,None,2024-09-09 13h20.49.937546 +0530,
36,0.5,2.5,37.25789910001913,,37.24320239998633,37.25789910001913,37.75777620001463,37.75777620001463,37.774309500004165,38.05794989998685,38.158891700033564,right,2.5,1,1,0.3943361000274308,059408,001,2024-09-09_13h20.40.102,adaptive_staircase 3rd friday,2024.1.5,None,2024-09-09 13h20.49.937546 +0530,
37,0.5,2.5,38.17411010002252,,38.15900550002698,38.17411010002252,38.674970699998084,38.674970699998084,38.674970699998084,38.973689100006595,39.20776120002847,right,2.5,1,1,0.5187039999873377,059408,001,2024-09-09_13h20.40.102,adaptive_staircase 3rd friday,2024.1.5,None,2024-09-09 13h20.49.937546 +0530,
38,0.5,2.5,39.22365460003493,,39.20822060003411,39.22365460003493,39.72290090000024,39.72290090000024,39.72290090000024,40.02354650001507,40.275025699986145,left,-2.5,1,1,0.5455744000500999,059408,001,2024-09-09_13h20.40.102,adaptive_staircase 3rd friday,2024.1.5,None,2024-09-09 13h20.49.937546 +0530,
39,0.5,2.0,40.289696599997114,,40.27510600001551,40.289696599997114,40.78975619998528,40.78975619998528,40.78975619998528,41.09014079999179,41.25755249999929,left,-2.0,1,1,0.45402100001228973,059408,001,2024-09-09_13h20.40.102,adaptive_staircase 3rd friday,2024.1.5,None,2024-09-09 13h20.49.937546 +0530,
40,0.5,2.0,41.27277260000119,,41.25769020000007,41.27277260000119,41.771922799991444,41.771922799991444,41.771922799991444,42.073047399986535,42.476952700002585,left,-2.0,0,0,0.6953451000154018,059408,001,2024-09-09_13h20.40.102,adaptive_staircase 3rd friday,2024.1.5,None,2024-09-09 13h20.49.937546 +0530,
41,0.5,2.5,42.490549300040584,,42.47710830002325,42.490549300040584,42.99000380001962,42.99000380001962,42.99000380001962,43.289388700039126,43.59071379998932,right,2.5,1,1,0.5894924000022002,059408,001,2024-09-09_13h20.40.102,adaptive_staircase 3rd friday,2024.1.5,None,2024-09-09 13h20.49.937546 +0530,
42,0.5,2.5,43.606453599990346,,43.59087680000812,43.606453599990346,44.089898200007156,44.089898200007156,44.1064086999977,44.38990090001607,44.65770770004019,right,2.5,1,1,0.5606142000178806,059408,001,2024-09-09_13h20.40.102,adaptive_staircase 3rd friday,2024.1.5,None,2024-09-09 13h20.49.937546 +0530,
43,0.5,2.5,44.673374100006185,,44.657832199998666,44.673374100006185,45.17219280003337,45.17219280003337,45.1895710999961,45.47257779998472,45.60621460003313,right,2.5,1,1,0.42620240000542253,059408,001,2024-09-09_13h20.40.102,adaptive_staircase 3rd friday,2024.1.5,None,2024-09-09 13h20.49.937546 +0530,
44,0.5,2.0,45.62191560002975,,45.60633109998889,45.62191560002975,46.10566400003154,46.10566400003154,46.12082539999392,46.40620349999517,46.690083499997854,left,-2.0,1,1,0.5755221000290476,059408,001,2024-09-09_13h20.40.102,adaptive_staircase 3rd friday,2024.1.5,None,2024-09-09 13h20.49.937546 +0530,
45,0.5,2.0,46.70604620000813,,46.690202500030864,46.70604620000813,47.20485470001586,47.20485470001586,47.20485470001586,47.50506629998563,47.6235752000357,left,-2.0,1,1,0.41001250001136214,059408,001,2024-09-09_13h20.40.102,adaptive_staircase 3rd friday,2024.1.5,None,2024-09-09 13h20.49.937546 +0530,
46,0.5,2.0,47.63839510001708,,47.62367619998986,47.63839510001708,48.13907219999237,48.13907219999237,48.13907219999237,48.43845230003353,48.756729100015946,left,-2.0,0,0,0.6055179999675602,059408,001,2024-09-09_13h20.40.102,adaptive_staircase 3rd friday,2024.1.5,None,2024-09-09 13h20.49.937546 +0530,
47,0.5,2.5,48.771413400012534,,48.756825599994045,48.771413400012534,49.27219430002151,49.27219430002151,49.27219430002151,49.57152950001182,49.906197700009216,left,-2.5,1,1,0.6283895000233315,059408,001,2024-09-09_13h20.40.102,adaptive_staircase 3rd friday,2024.1.5,None,2024-09-09 13h20.49.937546 +0530,
48,0.5,2.5,49.921080100000836,,49.906328100012615,49.921080100000836,50.404676700010896,50.404676700010896,50.42278060002718,50.70452720002504,50.95551699999487,right,2.5,1,1,0.5469360999995843,059408,001,2024-09-09_13h20.40.102,adaptive_staircase 3rd friday,2024.1.5,None,2024-09-09 13h20.49.937546 +0530,
49,0.5,2.5,50.97037150000688,,50.95563240000047,50.97037150000688,51.453713800001424,51.453713800001424,51.47151100001065,51.75378810003167,52.10486020002281,right,2.5,1,1,0.6383019000058994,059408,001,2024-09-09_13h20.40.102,adaptive_staircase 3rd friday,2024.1.5,None,2024-09-09 13h20.49.937546 +0530,
50,0.5,2.0,52.1202930000145,,52.10498000000371,52.1202930000145,52.604484700015746,52.604484700015746,52.62079030001769,52.90455919998931,53.07202810002491,left,-2.0,1,1,0.4646719000302255,059408,001,2024-09-09_13h20.40.102,adaptive_staircase 3rd friday,2024.1.5,None,2024-09-09 13h20.49.937546 +0530,
51,0.5,2.0,53.0871349000372,,53.072126400016714,53.0871349000372,53.5867084999918,53.5867084999918,53.5867084999918,53.88783100002911,53.97177850001026,left,-2.0,0,0,0.381287100026384,059408,001,2024-09-09_13h20.40.102,adaptive_staircase 3rd friday,2024.1.5,None,2024-09-09 13h20.49.937546 +0530,
52,0.5,2.5,53.98806719999993,,53.97194339998532,53.98806719999993,54.48773270001402,54.48773270001402,54.48773270001402,54.78649219998624,54.922725500015076,right,2.5,1,1,0.4309068000293337,059408,001,2024-09-09_13h20.40.102,adaptive_staircase 3rd friday,2024.1.5,None,2024-09-09 13h20.49.937546 +0530,
53,0.5,2.5,54.9361848999979,,54.922857200028375,54.9361848999979,55.43828170001507,55.43828170001507,55.43828170001507,55.73634609999135,55.855493500013836,right,2.5,1,1,0.4012312000268139,059408,001,2024-09-09_13h20.40.102,adaptive_staircase 3rd friday,2024.1.5,None,2024-09-09 13h20.49.937546 +0530,
54,0.5,2.5,55.870814400026575,,55.85564040002646,55.870814400026575,56.36991850001505,56.36991850001505,56.36991850001505,56.67007749999175,56.87079650000669,right,2.5,1,1,0.48618740000529215,059408,001,2024-09-09_13h20.40.102,adaptive_staircase 3rd friday,2024.1.5,None,2024-09-09 13h20.49.937546 +0530,
55,0.5,2.0,56.88568690000102,,56.87090450001415,56.88568690000102,57.37019990000408,57.37019990000408,57.38788230001228,57.66954510001233,57.787639799993485,right,2.0,1,1,0.4096101999748498,059408,001,2024-09-09_13h20.40.102,adaptive_staircase 3rd friday,2024.1.5,None,2024-09-09 13h20.49.937546 +0530,
56,0.5,2.0,57.803811600024346,,57.78776999999536,57.803811600024346,58.301917600037996,58.301917600037996,58.31934829999227,58.603154100012034,58.88801019999664,left,-2.0,1,1,0.5850873999879695,059408,001,2024-09-09_13h20.40.102,adaptive_staircase 3rd friday,2024.1.5,None,2024-09-09 13h20.49.937546 +0530,
57,0.5,2.0,58.90226290002465,,58.88812030002009,58.90226290002465,59.38698429998476,59.38698429998476,59.4025836000219,59.685994800005574,59.837382400000934,right,2.0,1,1,0.43428569997195154,059408,001,2024-09-09_13h20.40.102,adaptive_staircase 3rd friday,2024.1.5,None,2024-09-09 13h20.49.937546 +0530,
58,0.5,1.5,59.85204229998635,,59.83749890001491,59.85204229998635,60.33599980000872,60.33599980000872,60.3526400999981,60.63525130000198,60.953564000024926,right,1.5,1,1,0.6033668000018224,059408,001,2024-09-09_13h20.40.102,adaptive_staircase 3rd friday,2024.1.5,None,2024-09-09 13h20.49.937546 +0530,
59,0.5,1.5,60.96837990003405,,60.953677400015295,60.96837990003405,61.46856569999363,61.46856569999363,61.46856569999363,61.769876300008036,61.93767120002303,left,-1.5,1,1,0.46757189999334514,059408,001,2024-09-09_13h20.40.102,adaptive_staircase 3rd friday,2024.1.5,None,2024-09-09 13h20.49.937546 +0530,
60,0.5,1.5,61.951407000015024,,61.93780880002305,61.951407000015024,62.453204400022514,62.453204400022514,62.453204400022514,62.76902930001961,62.8369398000068,left,-1.5,1,1,0.3685844999854453,059408,001,2024-09-09_13h20.40.102,adaptive_staircase 3rd friday,2024.1.5,None,2024-09-09 13h20.49.937546 +0530,
61,0.5,1.0,62.853288599988446,,62.8370715000201,62.853288599988446,63.35236329998588,63.35236329998588,63.36793300003046,63.65229530003853,63.870083899993915,left,-1.0,0,0,0.5158244000049308,059408,001,2024-09-09_13h20.40.102,adaptive_staircase 3rd friday,2024.1.5,None,2024-09-09 13h20.49.937546 +0530,
62,0.5,1.5,63.88496659998782,,63.87020410003606,63.88496659998782,64.38503689999925,64.38503689999925,64.38503689999925,64.6846817000187,64.88775799999712,left,-1.5,1,1,0.4960942000034265,059408,001,2024-09-09_13h20.40.102,adaptive_staircase 3rd friday,2024.1.5,None,2024-09-09 13h20.49.937546 +0530,
63,0.5,1.5,64.901561900042,,64.88800520001678,64.901561900042,65.40139020001516,65.40139020001516,65.40139020001516,65.70134590001544,65.86967169999843,right,1.5,1,1,0.4636229999596253,059408,001,2024-09-09_13h20.40.102,adaptive_staircase 3rd friday,2024.1.5,None,2024-09-09 13h20.49.937546 +0530,
64,0.5,1.5,65.88372720003827,,65.86978340003407,65.88372720003827,66.38511810003547,66.38511810003547,66.38511810003547,66.68505700002424,66.95256830001017,left,-1.5,1,1,0.5585484999464825,059408,001,2024-09-09_13h20.40.102,adaptive_staircase 3rd friday,2024.1.5,None,2024-09-09 13h20.49.937546 +0530,
65,0.5,1.0,66.9671277999878,,66.95270740002161,66.9671277999878,67.46771029999945,67.46771029999945,67.46771029999945,67.76880700001493,67.85129399999278,right,1.0,1,1,0.37864129996160045,059408,001,2024-09-09_13h20.40.102,adaptive_staircase 3rd friday,2024.1.5,None,2024-09-09 13h20.49.937546 +0530,
66,0.5,1.0,67.86670010001399,,67.85137739998754,67.86670010001399,68.3504880000255,68.3504880000255,68.36703950003721,68.65086310001789,68.75118770002155,right,1.0,1,1,0.39345350000075996,059408,001,2024-09-09_13h20.40.102,adaptive_staircase 3rd friday,2024.1.5,None,2024-09-09 13h20.49.937546 +0530,
67,0.5,1.0,68.76694850000786,,68.75127730000531,68.76694850000786,69.25091090000933,69.25091090000933,69.2671074999962,69.55175179999787,70.05289340001764,left,-1.0,1,1,0.7861858999822289,059408,001,2024-09-09_13h20.40.102,adaptive_staircase 3rd friday,2024.1.5,None,2024-09-09 13h20.49.937546 +0530,
68,0.5,1.0,70.06779719999759,,70.05303700000513,70.06779719999759,70.56773360003717,70.56773360003717,70.56773360003717,70.86776890000328,70.94972650002455,left,-1.0,0,0,0.3700326000107452,059408,001,2024-09-09_13h20.40.102,adaptive_staircase 3rd friday,2024.1.5,None,2024-09-09 13h20.49.937546 +0530,
69,0.5,1.5,70.96628709998913,,70.9498151000007,70.96628709998913,71.45024169998942,71.45024169998942,71.4668807000271,71.74977200001013,71.85035780002363,left,-1.5,0,0,0.3908006999990903,059408,001,2024-09-09_13h20.40.102,adaptive_staircase 3rd friday,2024.1.5,None,2024-09-09 13h20.49.937546 +0530,
70,0.5,2.0,71.86653210001532,,71.85045550001087,71.86653210001532,72.35020330001134,72.35020330001134,72.36693150002975,72.6511482000351,72.8525466999854,left,-2.0,1,1,0.49859899998409674,059408,001,2024-09-09_13h20.40.102,adaptive_staircase 3rd friday,2024.1.5,None,2024-09-09 13h20.49.937546 +0530,
71,0.5,2.0,72.86679950001417,,72.85270560003119,72.86679950001417,73.3662553000031,73.3662553000031,73.3662553000031,73.66574840003159,73.84935949998908,left,-2.0,1,1,0.4734974000020884,059408,001,2024-09-09_13h20.40.102,adaptive_staircase 3rd friday,2024.1.5,None,2024-09-09 13h20.49.937546 +0530,
72,0.5,2.0,73.86582020000787,,73.849534100038,73.86582020000787,74.35044950002339,74.35044950002339,74.36726890003774,74.66634019999765,74.78315209998982,right,2.0,1,1,0.421483599988278,059408,001,2024-09-09_13h20.40.102,adaptive_staircase 3rd friday,2024.1.5,None,2024-09-09 13h20.49.937546 +0530,
73,0.5,1.5,74.79885369999101,,74.78329970000777,74.79885369999101,75.28309470001841,75.28309470001841,75.29957259999355,75.58312269998714,75.81808180001099,left,-1.5,1,1,0.5271134999929927,059408,001,2024-09-09_13h20.40.102,adaptive_staircase 3rd friday,2024.1.5,None,2024-09-09 13h20.49.937546 +0530,
74,0.5,1.5,75.83297849999508,,75.81822870002361,75.83297849999508,76.33167540002614,76.33167540002614,76.33167540002614,76.63212810002733,76.68344430002617,right,1.5,1,1,0.33907609997550026,059408,001,2024-09-09_13h20.40.102,adaptive_staircase 3rd friday,2024.1.5,None,2024-09-09 13h20.49.937546 +0530,
75,0.5,1.5,76.69861550000496,,76.68357110000215,76.69861550000496,77.19859630003339,77.19859630003339,77.19859630003339,77.49855740001658,77.73303840000881,right,1.5,0,0,0.5263999999733642,059408,001,2024-09-09_13h20.40.102,adaptive_staircase 3rd friday,2024.1.5,None,2024-09-09 13h20.49.937546 +0530,
76,0.5,2.0,77.74832920002518,,77.73315079999156,77.74832920002518,78.24934590002522,78.24934590002522,78.24934590002522,,78.5161321000196,right,2.0,1,1,0.2625438999966718,059408,001,2024-09-09_13h20.40.102,adaptive_staircase 3rd friday,2024.1.5,None,2024-09-09 13h20.49.937546 +0530,
77,0.5,2.0,78.53132680000272,,78.51622430002317,78.53132680000272,79.01517410000088,79.01517410000088,79.03153690003091,79.31669780000811,79.46517030004179,left,-2.0,0,0,0.4421961000189185,059408,001,2024-09-09_13h20.40.102,adaptive_staircase 3rd friday,2024.1.5,None,2024-09-09 13h20.49.937546 +0530,
78,0.5,2.5,79.48136179998983,,79.46525930002099,79.48136179998983,79.96539140003733,79.96539140003733,79.98121120000724,80.26586159999715,80.63437220000196,left,-2.5,1,1,0.6675173000548966,059408,001,2024-09-09_13h20.40.102,adaptive_staircase 3rd friday,2024.1.5,None,2024-09-09 13h20.49.937546 +0530,
79,0.5,2.5,80.64817820000462,,80.63449870003387,80.64817820000462,81.148500100011,81.148500100011,81.148500100011,81.44751900003757,81.76646680000704,left,-2.5,0,0,0.6034535000217147,059408,001,2024-09-09_13h20.40.102,adaptive_staircase 3rd friday,2024.1.5,None,2024-09-09 13h20.49.937546 +0530,
80,0.5,3.0,81.78008350002347,,81.76661970000714,81.78008350002347,82.28156470000977,82.28156470000977,82.28156470000977,82.58081870002206,82.7989774000016,left,-3.0,0,0,0.5148785000201315,059408,001,2024-09-09_13h20.40.102,adaptive_staircase 3rd friday,2024.1.5,None,2024-09-09 13h20.49.937546 +0530,
81,0.5,3.5,82.81402160000289,,82.7990796000231,82.81402160000289,83.31430209998507,83.31430209998507,83.31430209998507,83.61408249998931,83.98216930002673,right,3.5,1,1,0.6655747999902815,059408,001,2024-09-09_13h20.40.102,adaptive_staircase 3rd friday,2024.1.5,None,2024-09-09 13h20.49.937546 +0530,
82,0.5,3.5,83.9966662999941,,83.98229459999129,83.9966662999941,84.4974487000145,84.4974487000145,84.4974487000145,84.79842460004147,84.94788420002442,right,3.5,1,1,0.4348041000193916,059408,001,2024-09-09_13h20.40.102,adaptive_staircase 3rd friday,2024.1.5,None,2024-09-09 13h20.49.937546 +0530,
83,0.5,3.5,84.96350529999472,,84.94799389998661,84.96350529999472,85.46378540003207,85.46378540003207,85.46378540003207,85.76361610001186,86.0486517000245,right,3.5,1,1,0.5787606000085361,059408,001,2024-09-09_13h20.40.102,adaptive_staircase 3rd friday,2024.1.5,None,2024-09-09 13h20.49.937546 +0530,
84,0.5,3.0,86.06307740003103,,86.04878040001495,86.06307740003103,86.56335010001203,86.56335010001203,86.56335010001203,86.86393130000215,86.93132660002448,right,3.0,1,1,0.3555875000311062,059408,001,2024-09-09_13h20.40.102,adaptive_staircase 3rd friday,2024.1.5,None,2024-09-09 13h20.49.937546 +0530,
85,0.5,3.0,86.94730990001699,,86.931422499998,86.94730990001699,87.44640670000808,87.44640670000808,87.44640670000808,87.74727610003902,87.88400100002764,right,3.0,1,1,0.42400180001277477,059408,001,2024-09-09_13h20.40.102,adaptive_staircase 3rd friday,2024.1.5,None,2024-09-09 13h20.49.937546 +0530,
86,0.5,3.0,87.89674270001706,,87.884193600039,87.89674270001706,88.39576580002904,88.39576580002904,88.39576580002904,88.6969738000189,88.83071380003821,right,3.0,1,1,0.4208894000039436,059408,001,2024-09-09_13h20.40.102,adaptive_staircase 3rd friday,2024.1.5,None,2024-09-09 13h20.49.937546 +0530,
87,0.5,2.5,88.84629700001096,,88.83083719998831,88.84629700001096,89.32891680003377,89.32891680003377,89.34525170002598,89.62950909999199,90.0806137000327,left,-2.5,1,1,0.7372747000190429,059408,001,2024-09-09_13h20.40.102,adaptive_staircase 3rd friday,2024.1.5,None,2024-09-09 13h20.49.937546 +0530,
88,0.5,2.5,90.09710730001098,,90.0807195000234,90.09710730001098,90.59650490002241,90.59650490002241,90.59650490002241,90.91332689998671,90.98004410002613,right,2.5,1,1,0.37764200003584847,059408,001,2024-09-09_13h20.40.102,adaptive_staircase 3rd friday,2024.1.5,None,2024-09-09 13h20.49.937546 +0530,
89,0.5,2.5,90.99592529999791,,90.98016830004053,90.99592529999791,91.4961248000036,91.4961248000036,91.4961248000036,91.79576970002381,92.03147929999977,right,2.5,1,1,0.5327831000322476,059408,001,2024-09-09_13h20.40.102,adaptive_staircase 3rd friday,2024.1.5,None,2024-09-09 13h20.49.937546 +0530,
90,0.5,2.0,92.04601819999516,,92.03159920003964,92.04601819999516,92.54633560002549,92.54633560002549,92.54633560002549,92.84590180002851,92.99756129999878,right,2.0,1,1,0.44517080002697185,059408,001,2024-09-09_13h20.40.102,adaptive_staircase 3rd friday,2024.1.5,None,2024-09-09 13h20.49.937546 +0530,
91,0.5,2.0,93.01308430003701,,92.99774660001276,93.01308430003701,93.51289720000932,93.51289720000932,93.5289494000026,93.82857140002307,93.89775870001176,left,-2.0,0,0,0.3832956000114791,059408,001,2024-09-09_13h20.40.102,adaptive_staircase 3rd friday,2024.1.5,None,2024-09-09 13h20.49.937546 +0530,
92,0.5,2.5,93.91202899999917,,93.89788930001669,93.91202899999917,94.41230480000377,94.41230480000377,94.41230480000377,94.71216860000277,94.84582290000981,right,2.5,0,0,0.4274927000515163,059408,001,2024-09-09_13h20.40.102,adaptive_staircase 3rd friday,2024.1.5,None,2024-09-09 13h20.49.937546 +0530,
93,0.5,3.0,94.86182640003972,,94.8463100999943,94.86182640003972,95.36267719999887,95.36267719999887,95.36267719999887,95.67872540000826,95.79559860000154,right,3.0,1,1,0.42105439997976646,059408,001,2024-09-09_13h20.40.102,adaptive_staircase 3rd friday,2024.1.5,None,2024-09-09 13h20.49.937546 +0530,
94,0.5,3.0,95.81158510001842,,95.79570100002456,95.81158510001842,96.29422109998995,96.29422109998995,96.31031620001886,96.59602390002692,96.81100200000219,left,-3.0,1,1,0.5145348999649286,059408,001,2024-09-09_13h20.40.102,adaptive_staircase 3rd friday,2024.1.5,None,2024-09-09 13h20.49.937546 +0530,
95,0.5,3.0,96.82747170003131,,96.81107440002961,96.82747170003131,97.31161330000032,97.31161330000032,97.32807270000922,97.6123206000193,97.89550700003747,right,3.0,1,1,0.5680814000079408,059408,001,2024-09-09_13h20.40.102,adaptive_staircase 3rd friday,2024.1.5,None,2024-09-09 13h20.49.937546 +0530,
96,0.5,2.5,97.91112740000244,,97.89561589999357,97.91112740000244,98.4112014999846,98.4112014999846,98.4112014999846,98.71095929999137,98.87744090001797,right,2.5,1,1,0.4500191999832168,059408,001,2024-09-09_13h20.40.102,adaptive_staircase 3rd friday,2024.1.5,None,2024-09-09 13h20.49.937546 +0530,
97,0.5,2.5,98.89365129999351,,98.87751160003245,98.89365129999351,99.37850440002512,99.37850440002512,99.39432580000721,99.6937035000301,100.04632200003834,right,2.5,1,1,0.6534468000172637,059408,001,2024-09-09_13h20.40.102,adaptive_staircase 3rd friday,2024.1.5,None,2024-09-09 13h20.49.937546 +0530,
98,0.5,2.5,100.0615559000289,,100.04648520000046,100.0615559000289,100.56127589999232,100.56127589999232,100.56127589999232,100.86049099999946,100.99483290000353,right,2.5,1,1,0.4273607999784872,059408,001,2024-09-09_13h20.40.102,adaptive_staircase 3rd friday,2024.1.5,None,2024-09-09 13h20.49.937546 +0530,
99,0.5,2.0,101.01062290003756,,100.99497599998722,101.01062290003756,101.51050410000607,101.51050410000607,101.51050410000607,101.81112760002725,102.16177589999279,left,-2.0,1,1,0.6385785000165924,059408,001,2024-09-09_13h20.40.102,adaptive_staircase 3rd friday,2024.1.5,None,2024-09-09 13h20.49.937546 +0530,
